#      k          |W(k)|^{2}    
    0.000500      0.999999
    0.001500      0.999995
    0.002500      0.999987
    0.003500      0.999974
    0.004500      0.999958
    0.005500      0.999937
    0.006500      0.999912
    0.007500      0.999883
    0.008500      0.999849
    0.009500      0.999812
    0.010500      0.999770
    0.011500      0.999725
    0.012500      0.999675
    0.013500      0.999620
    0.014500      0.999562
    0.015500      0.999500
    0.016500      0.999433
    0.017500      0.999362
    0.018500      0.999287
    0.019500      0.999208
    0.020500      0.999125
    0.021500      0.999037
    0.022500      0.998946
    0.023500      0.998850
    0.024500      0.998750
    0.025500      0.998646
    0.026500      0.998538
    0.027500      0.998426
    0.028500      0.998309
    0.029500      0.998188
    0.030500      0.998064
    0.031500      0.997935
    0.032500      0.997802
    0.033500      0.997664
    0.034500      0.997523
    0.035500      0.997378
    0.036500      0.997228
    0.037500      0.997074
    0.038500      0.996916
    0.039500      0.996754
    0.040500      0.996588
    0.041500      0.996418
    0.042500      0.996243
    0.043500      0.996065
    0.044500      0.995882
    0.045500      0.995695
    0.046500      0.995504
    0.047500      0.995309
    0.048500      0.995110
    0.049500      0.994907
    0.050500      0.994699
    0.051500      0.994488
    0.052500      0.994272
    0.053500      0.994053
    0.054500      0.993829
    0.055500      0.993601
    0.056500      0.993369
    0.057500      0.993133
    0.058500      0.992893
    0.059500      0.992648
    0.060500      0.992400
    0.061500      0.992148
    0.062500      0.991891
    0.063500      0.991630
    0.064500      0.991366
    0.065500      0.991097
    0.066500      0.990824
    0.067500      0.990547
    0.068500      0.990266
    0.069500      0.989981
    0.070500      0.989692
    0.071500      0.989399
    0.072500      0.989102
    0.073500      0.988801
    0.074500      0.988496
    0.075500      0.988186
    0.076500      0.987873
    0.077500      0.987556
    0.078500      0.987234
    0.079500      0.986909
    0.080500      0.986579
    0.081500      0.986246
    0.082500      0.985908
    0.083500      0.985567
    0.084500      0.985221
    0.085500      0.984872
    0.086500      0.984518
    0.087500      0.984161
    0.088500      0.983799
    0.089500      0.983434
    0.090500      0.983065
    0.091500      0.982691
    0.092500      0.982314
    0.093500      0.981932
    0.094500      0.981547
    0.095500      0.981158
    0.096500      0.980764
    0.097500      0.980367
    0.098500      0.979966
    0.099500      0.979561
    0.100500      0.979152
    0.101500      0.978739
    0.102500      0.978322
    0.103500      0.977901
    0.104500      0.977476
    0.105500      0.977047
    0.106500      0.976614
    0.107500      0.976178
    0.108500      0.975737
    0.109500      0.975293
    0.110500      0.974845
    0.111500      0.974393
    0.112500      0.973937
    0.113500      0.973477
    0.114500      0.973013
    0.115500      0.972545
    0.116500      0.972074
    0.117500      0.971598
    0.118500      0.971119
    0.119500      0.970636
    0.120500      0.970149
    0.121500      0.969658
    0.122500      0.969164
    0.123500      0.968665
    0.124500      0.968163
    0.125500      0.967657
    0.126500      0.967147
    0.127500      0.966633
    0.128500      0.966116
    0.129500      0.965594
    0.130500      0.965069
    0.131500      0.964540
    0.132500      0.964008
    0.133500      0.963471
    0.134500      0.962931
    0.135500      0.962387
    0.136500      0.961839
    0.137500      0.961288
    0.138500      0.960732
    0.139500      0.960173
    0.140500      0.959611
    0.141500      0.959044
    0.142500      0.958474
    0.143500      0.957900
    0.144500      0.957323
    0.145500      0.956741
    0.146500      0.956156
    0.147500      0.955568
    0.148500      0.954975
    0.149500      0.954379
    0.150500      0.953780
    0.151500      0.953176
    0.152500      0.952569
    0.153500      0.951959
    0.154500      0.951344
    0.155500      0.950727
    0.156500      0.950105
    0.157500      0.949480
    0.158500      0.948851
    0.159500      0.948219
    0.160500      0.947583
    0.161500      0.946943
    0.162500      0.946300
    0.163500      0.945653
    0.164500      0.945003
    0.165500      0.944349
    0.166500      0.943691
    0.167500      0.943030
    0.168500      0.942365
    0.169500      0.941697
    0.170500      0.941026
    0.171500      0.940350
    0.172500      0.939672
    0.173500      0.938989
    0.174500      0.938304
    0.175500      0.937614
    0.176500      0.936922
    0.177500      0.936226
    0.178500      0.935526
    0.179500      0.934823
    0.180500      0.934116
    0.181500      0.933406
    0.182500      0.932693
    0.183500      0.931976
    0.184500      0.931255
    0.185500      0.930531
    0.186500      0.929804
    0.187500      0.929074
    0.188500      0.928340
    0.189500      0.927602
    0.190500      0.926861
    0.191500      0.926117
    0.192500      0.925370
    0.193500      0.924619
    0.194500      0.923865
    0.195500      0.923107
    0.196500      0.922346
    0.197500      0.921582
    0.198500      0.920814
    0.199500      0.920043
    0.200500      0.919269
    0.201500      0.918492
    0.202500      0.917711
    0.203500      0.916927
    0.204500      0.916140
    0.205500      0.915349
    0.206500      0.914555
    0.207500      0.913758
    0.208500      0.912958
    0.209500      0.912154
    0.210500      0.911348
    0.211500      0.910538
    0.212500      0.909725
    0.213500      0.908908
    0.214500      0.908089
    0.215500      0.907266
    0.216500      0.906440
    0.217500      0.905611
    0.218500      0.904779
    0.219500      0.903943
    0.220500      0.903105
    0.221500      0.902263
    0.222500      0.901419
    0.223500      0.900571
    0.224500      0.899720
    0.225500      0.898866
    0.226500      0.898009
    0.227500      0.897149
    0.228500      0.896286
    0.229500      0.895419
    0.230500      0.894550
    0.231500      0.893678
    0.232500      0.892802
    0.233500      0.891924
    0.234500      0.891043
    0.235500      0.890158
    0.236500      0.889271
    0.237500      0.888381
    0.238500      0.887487
    0.239500      0.886591
    0.240500      0.885692
    0.241500      0.884790
    0.242500      0.883884
    0.243500      0.882976
    0.244500      0.882066
    0.245500      0.881152
    0.246500      0.880235
    0.247500      0.879315
    0.248500      0.878393
    0.249500      0.877468
    0.250500      0.876539
    0.251500      0.875608
    0.252500      0.874674
    0.253500      0.873738
    0.254500      0.872798
    0.255500      0.871856
    0.256500      0.870911
    0.257500      0.869963
    0.258500      0.869012
    0.259500      0.868058
    0.260500      0.867102
    0.261500      0.866143
    0.262500      0.865182
    0.263500      0.864217
    0.264500      0.863250
    0.265500      0.862280
    0.266500      0.861307
    0.267500      0.860332
    0.268500      0.859354
    0.269500      0.858374
    0.270500      0.857390
    0.271500      0.856404
    0.272500      0.855416
    0.273500      0.854425
    0.274500      0.853431
    0.275500      0.852435
    0.276500      0.851436
    0.277500      0.850434
    0.278500      0.849430
    0.279500      0.848423
    0.280500      0.847414
    0.281500      0.846402
    0.282500      0.845387
    0.283500      0.844371
    0.284500      0.843351
    0.285500      0.842329
    0.286500      0.841305
    0.287500      0.840278
    0.288500      0.839249
    0.289500      0.838217
    0.290500      0.837182
    0.291500      0.836146
    0.292500      0.835106
    0.293500      0.834065
    0.294500      0.833021
    0.295500      0.831974
    0.296500      0.830926
    0.297500      0.829875
    0.298500      0.828821
    0.299500      0.827765
    0.300500      0.826707
    0.301500      0.825646
    0.302500      0.824583
    0.303500      0.823518
    0.304500      0.822451
    0.305500      0.821381
    0.306500      0.820309
    0.307500      0.819234
    0.308500      0.818158
    0.309500      0.817079
    0.310500      0.815998
    0.311500      0.814914
    0.312500      0.813829
    0.313500      0.812741
    0.314500      0.811651
    0.315500      0.810559
    0.316500      0.809465
    0.317500      0.808368
    0.318500      0.807270
    0.319500      0.806169
    0.320500      0.805066
    0.321500      0.803961
    0.322500      0.802854
    0.323500      0.801744
    0.324500      0.800633
    0.325500      0.799520
    0.326500      0.798404
    0.327500      0.797287
    0.328500      0.796167
    0.329500      0.795046
    0.330500      0.793922
    0.331500      0.792796
    0.332500      0.791669
    0.333500      0.790539
    0.334500      0.789408
    0.335500      0.788274
    0.336500      0.787139
    0.337500      0.786001
    0.338500      0.784862
    0.339500      0.783720
    0.340500      0.782577
    0.341500      0.781432
    0.342500      0.780285
    0.343500      0.779136
    0.344500      0.777986
    0.345500      0.776833
    0.346500      0.775679
    0.347500      0.774522
    0.348500      0.773364
    0.349500      0.772205
    0.350500      0.771043
    0.351500      0.769880
    0.352500      0.768714
    0.353500      0.767547
    0.354500      0.766379
    0.355500      0.765208
    0.356500      0.764036
    0.357500      0.762862
    0.358500      0.761686
    0.359500      0.760509
    0.360500      0.759330
    0.361500      0.758150
    0.362500      0.756967
    0.363500      0.755783
    0.364500      0.754598
    0.365500      0.753411
    0.366500      0.752222
    0.367500      0.751031
    0.368500      0.749839
    0.369500      0.748646
    0.370500      0.747450
    0.371500      0.746254
    0.372500      0.745056
    0.373500      0.743856
    0.374500      0.742654
    0.375500      0.741452
    0.376500      0.740247
    0.377500      0.739041
    0.378500      0.737834
    0.379500      0.736625
    0.380500      0.735415
    0.381500      0.734204
    0.382500      0.732990
    0.383500      0.731776
    0.384500      0.730560
    0.385500      0.729343
    0.386500      0.728124
    0.387500      0.726904
    0.388500      0.725683
    0.389500      0.724460
    0.390500      0.723236
    0.391500      0.722010
    0.392500      0.720784
    0.393500      0.719556
    0.394500      0.718326
    0.395500      0.717096
    0.396500      0.715864
    0.397500      0.714631
    0.398500      0.713396
    0.399500      0.712161
    0.400500      0.710924
    0.401500      0.709686
    0.402500      0.708447
    0.403500      0.707206
    0.404500      0.705965
    0.405500      0.704722
    0.406500      0.703478
    0.407500      0.702233
    0.408500      0.700987
    0.409500      0.699739
    0.410500      0.698491
    0.411500      0.697242
    0.412500      0.695991
    0.413500      0.694739
    0.414500      0.693487
    0.415500      0.692233
    0.416500      0.690978
    0.417500      0.689722
    0.418500      0.688465
    0.419500      0.687208
    0.420500      0.685949
    0.421500      0.684689
    0.422500      0.683428
    0.423500      0.682166
    0.424500      0.680904
    0.425500      0.679640
    0.426500      0.678376
    0.427500      0.677110
    0.428500      0.675844
    0.429500      0.674577
    0.430500      0.673309
    0.431500      0.672040
    0.432500      0.670770
    0.433500      0.669499
    0.434500      0.668228
    0.435500      0.666955
    0.436500      0.665682
    0.437500      0.664408
    0.438500      0.663134
    0.439500      0.661858
    0.440500      0.660582
    0.441500      0.659305
    0.442500      0.658027
    0.443500      0.656749
    0.444500      0.655470
    0.445500      0.654190
    0.446500      0.652909
    0.447500      0.651628
    0.448500      0.650346
    0.449500      0.649064
    0.450500      0.647781
    0.451500      0.646497
    0.452500      0.645212
    0.453500      0.643927
    0.454500      0.642642
    0.455500      0.641355
    0.456500      0.640069
    0.457500      0.638781
    0.458500      0.637493
    0.459500      0.636205
    0.460500      0.634916
    0.461500      0.633626
    0.462500      0.632336
    0.463500      0.631046
    0.464500      0.629755
    0.465500      0.628463
    0.466500      0.627171
    0.467500      0.625879
    0.468500      0.624586
    0.469500      0.623292
    0.470500      0.621999
    0.471500      0.620705
    0.472500      0.619410
    0.473500      0.618115
    0.474500      0.616820
    0.475500      0.615524
    0.476500      0.614228
    0.477500      0.612932
    0.478500      0.611635
    0.479500      0.610338
    0.480500      0.609041
    0.481500      0.607743
    0.482500      0.606445
    0.483500      0.605147
    0.484500      0.603849
    0.485500      0.602550
    0.486500      0.601251
    0.487500      0.599952
    0.488500      0.598653
    0.489500      0.597353
    0.490500      0.596053
    0.491500      0.594753
    0.492500      0.593453
    0.493500      0.592153
    0.494500      0.590852
    0.495500      0.589552
    0.496500      0.588251
    0.497500      0.586950
    0.498500      0.585649
    0.499500      0.584348
    0.500500      0.583047
    0.501500      0.581746
    0.502500      0.580444
    0.503500      0.579143
    0.504500      0.577841
    0.505500      0.576540
    0.506500      0.575239
    0.507500      0.573937
    0.508500      0.572636
    0.509500      0.571334
    0.510500      0.570033
    0.511500      0.568731
    0.512500      0.567430
    0.513500      0.566128
    0.514500      0.564827
    0.515500      0.563526
    0.516500      0.562225
    0.517500      0.560924
    0.518500      0.559623
    0.519500      0.558322
    0.520500      0.557021
    0.521500      0.555721
    0.522500      0.554420
    0.523500      0.553120
    0.524500      0.551820
    0.525500      0.550520
    0.526500      0.549220
    0.527500      0.547921
    0.528500      0.546621
    0.529500      0.545322
    0.530500      0.544023
    0.531500      0.542725
    0.532500      0.541426
    0.533500      0.540128
    0.534500      0.538830
    0.535500      0.537533
    0.536500      0.536236
    0.537500      0.534939
    0.538500      0.533642
    0.539500      0.532346
    0.540500      0.531050
    0.541500      0.529754
    0.542500      0.528459
    0.543500      0.527164
    0.544500      0.525869
    0.545500      0.524575
    0.546500      0.523281
    0.547500      0.521987
    0.548500      0.520694
    0.549500      0.519402
    0.550500      0.518110
    0.551500      0.516818
    0.552500      0.515527
    0.553500      0.514236
    0.554500      0.512946
    0.555500      0.511656
    0.556500      0.510366
    0.557500      0.509078
    0.558500      0.507789
    0.559500      0.506501
    0.560500      0.505214
    0.561500      0.503927
    0.562500      0.502641
    0.563500      0.501355
    0.564500      0.500070
    0.565500      0.498786
    0.566500      0.497502
    0.567500      0.496219
    0.568500      0.494936
    0.569500      0.493654
    0.570500      0.492372
    0.571500      0.491091
    0.572500      0.489811
    0.573500      0.488532
    0.574500      0.487253
    0.575500      0.485975
    0.576500      0.484697
    0.577500      0.483420
    0.578500      0.482144
    0.579500      0.480869
    0.580500      0.479594
    0.581500      0.478320
    0.582500      0.477047
    0.583500      0.475775
    0.584500      0.474503
    0.585500      0.473232
    0.586500      0.471962
    0.587500      0.470692
    0.588500      0.469424
    0.589500      0.468156
    0.590500      0.466889
    0.591500      0.465623
    0.592500      0.464357
    0.593500      0.463093
    0.594500      0.461829
    0.595500      0.460566
    0.596500      0.459305
    0.597500      0.458043
    0.598500      0.456783
    0.599500      0.455524
    0.600500      0.454266
    0.601500      0.453008
    0.602500      0.451752
    0.603500      0.450496
    0.604500      0.449241
    0.605500      0.447988
    0.606500      0.446735
    0.607500      0.445483
    0.608500      0.444232
    0.609500      0.442982
    0.610500      0.441733
    0.611500      0.440485
    0.612500      0.439239
    0.613500      0.437993
    0.614500      0.436748
    0.615500      0.435504
    0.616500      0.434261
    0.617500      0.433019
    0.618500      0.431779
    0.619500      0.430539
    0.620500      0.429300
    0.621500      0.428063
    0.622500      0.426827
    0.623500      0.425591
    0.624500      0.424357
    0.625500      0.423124
    0.626500      0.421892
    0.627500      0.420661
    0.628500      0.419431
    0.629500      0.418203
    0.630500      0.416975
    0.631500      0.415749
    0.632500      0.414524
    0.633500      0.413300
    0.634500      0.412078
    0.635500      0.410856
    0.636500      0.409636
    0.637500      0.408416
    0.638500      0.407199
    0.639500      0.405982
    0.640500      0.404766
    0.641500      0.403552
    0.642500      0.402339
    0.643500      0.401127
    0.644500      0.399917
    0.645500      0.398708
    0.646500      0.397500
    0.647500      0.396293
    0.648500      0.395088
    0.649500      0.393884
    0.650500      0.392681
    0.651500      0.391480
    0.652500      0.390279
    0.653500      0.389081
    0.654500      0.387883
    0.655500      0.386687
    0.656500      0.385492
    0.657500      0.384299
    0.658500      0.383107
    0.659500      0.381916
    0.660500      0.380727
    0.661500      0.379539
    0.662500      0.378352
    0.663500      0.377167
    0.664500      0.375983
    0.665500      0.374801
    0.666500      0.373620
    0.667500      0.372441
    0.668500      0.371263
    0.669500      0.370086
    0.670500      0.368911
    0.671500      0.367737
    0.672500      0.366565
    0.673500      0.365394
    0.674500      0.364225
    0.675500      0.363057
    0.676500      0.361891
    0.677500      0.360726
    0.678500      0.359563
    0.679500      0.358401
    0.680500      0.357240
    0.681500      0.356082
    0.682500      0.354924
    0.683500      0.353769
    0.684500      0.352614
    0.685500      0.351462
    0.686500      0.350311
    0.687500      0.349161
    0.688500      0.348013
    0.689500      0.346867
    0.690500      0.345722
    0.691500      0.344578
    0.692500      0.343437
    0.693500      0.342297
    0.694500      0.341158
    0.695500      0.340021
    0.696500      0.338886
    0.697500      0.337752
    0.698500      0.336620
    0.699500      0.335490
    0.700500      0.334361
    0.701500      0.333234
    0.702500      0.332109
    0.703500      0.330985
    0.704500      0.329863
    0.705500      0.328742
    0.706500      0.327623
    0.707500      0.326506
    0.708500      0.325391
    0.709500      0.324277
    0.710500      0.323165
    0.711500      0.322054
    0.712500      0.320946
    0.713500      0.319839
    0.714500      0.318733
    0.715500      0.317630
    0.716500      0.316528
    0.717500      0.315428
    0.718500      0.314330
    0.719500      0.313233
    0.720500      0.312138
    0.721500      0.311045
    0.722500      0.309954
    0.723500      0.308864
    0.724500      0.307776
    0.725500      0.306690
    0.726500      0.305606
    0.727500      0.304523
    0.728500      0.303443
    0.729500      0.302364
    0.730500      0.301286
    0.731500      0.300211
    0.732500      0.299138
    0.733500      0.298066
    0.734500      0.296996
    0.735500      0.295928
    0.736500      0.294862
    0.737500      0.293797
    0.738500      0.292735
    0.739500      0.291674
    0.740500      0.290615
    0.741500      0.289558
    0.742500      0.288503
    0.743500      0.287449
    0.744500      0.286398
    0.745500      0.285348
    0.746500      0.284300
    0.747500      0.283255
    0.748500      0.282211
    0.749500      0.281168
    0.750500      0.280128
    0.751500      0.279090
    0.752500      0.278053
    0.753500      0.277019
    0.754500      0.275986
    0.755500      0.274955
    0.756500      0.273927
    0.757500      0.272900
    0.758500      0.271875
    0.759500      0.270852
    0.760500      0.269831
    0.761500      0.268811
    0.762500      0.267794
    0.763500      0.266779
    0.764500      0.265765
    0.765500      0.264754
    0.766500      0.263744
    0.767500      0.262737
    0.768500      0.261731
    0.769500      0.260728
    0.770500      0.259726
    0.771500      0.258726
    0.772500      0.257729
    0.773500      0.256733
    0.774500      0.255739
    0.775500      0.254747
    0.776500      0.253758
    0.777500      0.252770
    0.778500      0.251784
    0.779500      0.250800
    0.780500      0.249819
    0.781500      0.248839
    0.782500      0.247861
    0.783500      0.246885
    0.784500      0.245911
    0.785500      0.244940
    0.786500      0.243970
    0.787500      0.243002
    0.788500      0.242037
    0.789500      0.241073
    0.790500      0.240111
    0.791500      0.239152
    0.792500      0.238194
    0.793500      0.237239
    0.794500      0.236285
    0.795500      0.235334
    0.796500      0.234384
    0.797500      0.233437
    0.798500      0.232492
    0.799500      0.231548
    0.800500      0.230607
    0.801500      0.229668
    0.802500      0.228731
    0.803500      0.227796
    0.804500      0.226863
    0.805500      0.225932
    0.806500      0.225004
    0.807500      0.224077
    0.808500      0.223152
    0.809500      0.222230
    0.810500      0.221309
    0.811500      0.220391
    0.812500      0.219475
    0.813500      0.218561
    0.814500      0.217649
    0.815500      0.216739
    0.816500      0.215831
    0.817500      0.214925
    0.818500      0.214021
    0.819500      0.213120
    0.820500      0.212220
    0.821500      0.211323
    0.822500      0.210427
    0.823500      0.209534
    0.824500      0.208643
    0.825500      0.207754
    0.826500      0.206867
    0.827500      0.205983
    0.828500      0.205100
    0.829500      0.204220
    0.830500      0.203341
    0.831500      0.202465
    0.832500      0.201591
    0.833500      0.200719
    0.834500      0.199849
    0.835500      0.198982
    0.836500      0.198116
    0.837500      0.197253
    0.838500      0.196391
    0.839500      0.195532
    0.840500      0.194675
    0.841500      0.193820
    0.842500      0.192967
    0.843500      0.192117
    0.844500      0.191268
    0.845500      0.190422
    0.846500      0.189578
    0.847500      0.188736
    0.848500      0.187896
    0.849500      0.187058
    0.850500      0.186223
    0.851500      0.185389
    0.852500      0.184558
    0.853500      0.183729
    0.854500      0.182902
    0.855500      0.182077
    0.856500      0.181255
    0.857500      0.180434
    0.858500      0.179616
    0.859500      0.178800
    0.860500      0.177986
    0.861500      0.177174
    0.862500      0.176364
    0.863500      0.175557
    0.864500      0.174751
    0.865500      0.173948
    0.866500      0.173147
    0.867500      0.172348
    0.868500      0.171551
    0.869500      0.170757
    0.870500      0.169965
    0.871500      0.169174
    0.872500      0.168386
    0.873500      0.167600
    0.874500      0.166817
    0.875500      0.166035
    0.876500      0.165256
    0.877500      0.164479
    0.878500      0.163704
    0.879500      0.162931
    0.880500      0.162160
    0.881500      0.161392
    0.882500      0.160625
    0.883500      0.159861
    0.884500      0.159099
    0.885500      0.158339
    0.886500      0.157582
    0.887500      0.156826
    0.888500      0.156073
    0.889500      0.155322
    0.890500      0.154573
    0.891500      0.153826
    0.892500      0.153081
    0.893500      0.152339
    0.894500      0.151599
    0.895500      0.150861
    0.896500      0.150125
    0.897500      0.149391
    0.898500      0.148659
    0.899500      0.147930
    0.900500      0.147202
    0.901500      0.146477
    0.902500      0.145754
    0.903500      0.145034
    0.904500      0.144315
    0.905500      0.143599
    0.906500      0.142884
    0.907500      0.142172
    0.908500      0.141462
    0.909500      0.140755
    0.910500      0.140049
    0.911500      0.139346
    0.912500      0.138644
    0.913500      0.137945
    0.914500      0.137248
    0.915500      0.136553
    0.916500      0.135861
    0.917500      0.135170
    0.918500      0.134482
    0.919500      0.133796
    0.920500      0.133112
    0.921500      0.132430
    0.922500      0.131750
    0.923500      0.131073
    0.924500      0.130397
    0.925500      0.129724
    0.926500      0.129053
    0.927500      0.128384
    0.928500      0.127717
    0.929500      0.127053
    0.930500      0.126390
    0.931500      0.125730
    0.932500      0.125072
    0.933500      0.124416
    0.934500      0.123762
    0.935500      0.123110
    0.936500      0.122461
    0.937500      0.121813
    0.938500      0.121168
    0.939500      0.120524
    0.940500      0.119883
    0.941500      0.119244
    0.942500      0.118608
    0.943500      0.117973
    0.944500      0.117340
    0.945500      0.116710
    0.946500      0.116082
    0.947500      0.115456
    0.948500      0.114832
    0.949500      0.114210
    0.950500      0.113590
    0.951500      0.112972
    0.952500      0.112357
    0.953500      0.111743
    0.954500      0.111132
    0.955500      0.110523
    0.956500      0.109916
    0.957500      0.109311
    0.958500      0.108708
    0.959500      0.108107
    0.960500      0.107508
    0.961500      0.106912
    0.962500      0.106317
    0.963500      0.105725
    0.964500      0.105134
    0.965500      0.104546
    0.966500      0.103960
    0.967500      0.103376
    0.968500      0.102794
    0.969500      0.102214
    0.970500      0.101637
    0.971500      0.101061
    0.972500      0.100487
    0.973500      0.099916
    0.974500      0.099346
    0.975500      0.098779
    0.976500      0.098214
    0.977500      0.097651
    0.978500      0.097089
    0.979500      0.096530
    0.980500      0.095973
    0.981500      0.095418
    0.982500      0.094865
    0.983500      0.094315
    0.984500      0.093766
    0.985500      0.093219
    0.986500      0.092674
    0.987500      0.092132
    0.988500      0.091591
    0.989500      0.091053
    0.990500      0.090516
    0.991500      0.089982
    0.992500      0.089449
    0.993500      0.088919
    0.994500      0.088390
    0.995500      0.087864
    0.996500      0.087340
    0.997500      0.086818
    0.998500      0.086297
    0.999500      0.085779
